[{"view_history":"[{\"page_index\":0,\"viewing_time\":3936},{\"page_index\":1,\"viewing_time\":1165}]","rt":5103,"trial_type":"instructions","trial_index":0,"time_elapsed":5140,"internal_node_id":"0.0-0.0"},{"success":true,"trial_type":"fullscreen","trial_index":1,"time_elapsed":7394,"internal_node_id":"0.0-1.0"},{"rt":null,"stimulus":"","key_press":null,"trial_type":"html-keyboard-response","trial_index":2,"time_elapsed":7403,"internal_node_id":"0.0-2.0"},{"rt":290,"stimulus":"<div id='stim_item' style='font-size:80px; onmousedown='return false' onselectstart='return false'>वाषमरिय<br><br></div>","button_pressed":"0","type":"nonword","corrResp":"z","trial_type":"html-button-response","trial_index":3,"time_elapsed":7694,"internal_node_id":"0.0-3.0-0.0","givenResp":"z","acc":1},{"rt":111,"stimulus":"<div id='stim_item' style='font-size:80px; onmousedown='return false' onselectstart='return false'>अनेजमीं<br><br></div>","button_pressed":"1","type":"nonword","corrResp":"z","trial_type":"html-button-response","trial_index":4,"time_elapsed":7806,"internal_node_id":"0.0-3.0-0.1","givenResp":"m","acc":0},{"rt":202,"stimulus":"<div id='stim_item' style='font-size:80px; onmousedown='return false' onselectstart='return false'>सरौता<br><br></div>","button_pressed":"0","type":"word","corrResp":"m","trial_type":"html-button-response","trial_index":5,"time_elapsed":8010,"internal_node_id":"0.0-3.0-0.2","givenResp":"z","acc":0},{"rt":72,"stimulus":"<div id='stim_item' style='font-size:80px; onmousedown='return false' onselectstart='return false'>गेंद<br><br></div>","button_pressed":"1","type":"word","corrResp":"m","trial_type":"html-button-response","trial_index":6,"time_elapsed":8084,"internal_node_id":"0.0-3.0-0.3","givenResp":"m","acc":1},{"rt":215,"stimulus":"<div id='stim_item' style='font-size:80px; onmousedown='return false' onselectstart='return false'>वजह<br><br></div>","button_pressed":"0","type":"word","corrResp":"m","trial_type":"html-button-response","trial_index":7,"time_elapsed":8302,"internal_node_id":"0.0-3.0-0.4","givenResp":"z","acc":0},{"rt":1225,"stimulus":"<div id='stim_item' style='font-size:80px; onmousedown='return false' onselectstart='return false'>सर्वत्र<br><br></div>","button_pressed":"1","type":"word","corrResp":"m","trial_type":"html-button-response","trial_index":8,"time_elapsed":9529,"internal_node_id":"0.0-3.0-0.5","givenResp":"m","acc":1},{"rt":525,"stimulus":"<div id='stim_item' style='font-size:80px; onmousedown='return false' onselectstart='return false'>﻿हीब्त<br><br></div>","button_pressed":"1","type":"nonword","corrResp":"z","trial_type":"html-button-response","trial_index":9,"time_elapsed":10055,"internal_node_id":"0.0-3.0-0.6","givenResp":"m","acc":0},{"rt":37,"stimulus":"<div id='stim_item' style='font-size:80px; onmousedown='return false' onselectstart='return false'>तालिनी<br><br></div>","button_pressed":"1","type":"nonword","corrResp":"z","trial_type":"html-button-response","trial_index":10,"time_elapsed":10093,"internal_node_id":"0.0-3.0-0.7","givenResp":"m","acc":0},{"rt":38,"stimulus":"<div id='stim_item' style='font-size:80px; onmousedown='return false' onselectstart='return false'>अजवाइन<br><br></div>","button_pressed":"1","type":"word","corrResp":"m","trial_type":"html-button-response","trial_index":11,"time_elapsed":10133,"internal_node_id":"0.0-3.0-0.8","givenResp":"m","acc":1},{"rt":33,"stimulus":"<div id='stim_item' style='font-size:80px; onmousedown='return false' onselectstart='return false'>परिष्त<br><br></div>","button_pressed":"1","type":"nonword","corrResp":"z","trial_type":"html-button-response","trial_index":12,"time_elapsed":10168,"internal_node_id":"0.0-3.0-0.9","givenResp":"m","acc":0},{"rt":35,"stimulus":"<div id='stim_item' style='font-size:80px; onmousedown='return false' onselectstart='return false'>आँगन<br><br></div>","button_pressed":"1","type":"word","corrResp":"m","trial_type":"html-button-response","trial_index":13,"time_elapsed":10204,"internal_node_id":"0.0-3.0-0.10","givenResp":"m","acc":1},{"rt":37,"stimulus":"<div id='stim_item' style='font-size:80px; onmousedown='return false' onselectstart='return false'>खनिज<br><br></div>","button_pressed":"1","type":"word","corrResp":"m","trial_type":"html-button-response","trial_index":14,"time_elapsed":10242,"internal_node_id":"0.0-3.0-0.11","givenResp":"m","acc":1},{"rt":36,"stimulus":"<div id='stim_item' style='font-size:80px; onmousedown='return false' onselectstart='return false'>अधिदेत<br><br></div>","button_pressed":"1","type":"nonword","corrResp":"z","trial_type":"html-button-response","trial_index":15,"time_elapsed":10280,"internal_node_id":"0.0-3.0-0.12","givenResp":"m","acc":0},{"rt":36,"stimulus":"<div id='stim_item' style='font-size:80px; onmousedown='return false' onselectstart='return false'>निंध<br><br></div>","button_pressed":"1","type":"nonword","corrResp":"z","trial_type":"html-button-response","trial_index":16,"time_elapsed":10318,"internal_node_id":"0.0-3.0-0.13","givenResp":"m","acc":0},{"rt":35,"stimulus":"<div id='stim_item' style='font-size:80px; onmousedown='return false' onselectstart='return false'>नीर<br><br></div>","button_pressed":"1","type":"word","corrResp":"m","trial_type":"html-button-response","trial_index":17,"time_elapsed":10354,"internal_node_id":"0.0-3.0-0.14","givenResp":"m","acc":1},{"rt":36,"stimulus":"<div id='stim_item' style='font-size:80px; onmousedown='return false' onselectstart='return false'>विशाल<br><br></div>","button_pressed":"1","type":"word","corrResp":"m","trial_type":"html-button-response","trial_index":18,"time_elapsed":10391,"internal_node_id":"0.0-3.0-0.15","givenResp":"m","acc":1},{"rt":38,"stimulus":"<div id='stim_item' style='font-size:80px; onmousedown='return false' onselectstart='return false'>मौसम<br><br></div>","button_pressed":"1","type":"word","corrResp":"m","trial_type":"html-button-response","trial_index":19,"time_elapsed":10429,"internal_node_id":"0.0-3.0-0.16","givenResp":"m","acc":1},{"rt":35,"stimulus":"<div id='stim_item' style='font-size:80px; onmousedown='return false' onselectstart='return false'>रतालू<br><br></div>","button_pressed":"1","type":"word","corrResp":"m","trial_type":"html-button-response","trial_index":20,"time_elapsed":10467,"internal_node_id":"0.0-3.0-0.17","givenResp":"m","acc":1},{"rt":34,"stimulus":"<div id='stim_item' style='font-size:80px; onmousedown='return false' onselectstart='return false'>अधिभक<br><br></div>","button_pressed":"1","type":"nonword","corrResp":"z","trial_type":"html-button-response","trial_index":21,"time_elapsed":10502,"internal_node_id":"0.0-3.0-0.18","givenResp":"m","acc":0},{"rt":37,"stimulus":"<div id='stim_item' style='font-size:80px; onmousedown='return false' onselectstart='return false'>अंततः<br><br></div>","button_pressed":"1","type":"word","corrResp":"m","trial_type":"html-button-response","trial_index":22,"time_elapsed":10540,"internal_node_id":"0.0-3.0-0.19","givenResp":"m","acc":1},{"rt":36,"stimulus":"<div id='stim_item' style='font-size:80px; onmousedown='return false' onselectstart='return false'>विभोणु<br><br></div>","button_pressed":"1","type":"nonword","corrResp":"z","trial_type":"html-button-response","trial_index":23,"time_elapsed":10577,"internal_node_id":"0.0-3.0-0.20","givenResp":"m","acc":0},{"rt":37,"stimulus":"<div id='stim_item' style='font-size:80px; onmousedown='return false' onselectstart='return false'>व्युत्पत्ति<br><br></div>","button_pressed":"1","type":"word","corrResp":"m","trial_type":"html-button-response","trial_index":24,"time_elapsed":10615,"internal_node_id":"0.0-3.0-0.21","givenResp":"m","acc":1},{"rt":36,"stimulus":"<div id='stim_item' style='font-size:80px; onmousedown='return false' onselectstart='return false'>प्रचाहित<br><br></div>","button_pressed":"1","type":"nonword","corrResp":"z","trial_type":"html-button-response","trial_index":25,"time_elapsed":10654,"internal_node_id":"0.0-3.0-0.22","givenResp":"m","acc":0},{"rt":34,"stimulus":"<div id='stim_item' style='font-size:80px; onmousedown='return false' onselectstart='return false'>टिंर<br><br></div>","button_pressed":"1","type":"nonword","corrResp":"z","trial_type":"html-button-response","trial_index":26,"time_elapsed":10691,"internal_node_id":"0.0-3.0-0.23","givenResp":"m","acc":0},{"rt":36,"stimulus":"<div id='stim_item' style='font-size:80px; onmousedown='return false' onselectstart='return false'>पगडंडी<br><br></div>","button_pressed":"1","type":"word","corrResp":"m","trial_type":"html-button-response","trial_index":27,"time_elapsed":10728,"internal_node_id":"0.0-3.0-0.24","givenResp":"m","acc":1},{"rt":35,"stimulus":"<div id='stim_item' style='font-size:80px; onmousedown='return false' onselectstart='return false'>टूर्ख<br><br></div>","button_pressed":"1","type":"nonword","corrResp":"z","trial_type":"html-button-response","trial_index":28,"time_elapsed":10764,"internal_node_id":"0.0-3.0-0.25","givenResp":"m","acc":0},{"rt":38,"stimulus":"<div id='stim_item' style='font-size:80px; onmousedown='return false' onselectstart='return false'>अवसाद<br><br></div>","button_pressed":"1","type":"word","corrResp":"m","trial_type":"html-button-response","trial_index":29,"time_elapsed":10803,"internal_node_id":"0.0-3.0-0.26","givenResp":"m","acc":1},{"rt":35,"stimulus":"<div id='stim_item' style='font-size:80px; onmousedown='return false' onselectstart='return false'>बाह्य<br><br></div>","button_pressed":"1","type":"word","corrResp":"m","trial_type":"html-button-response","trial_index":30,"time_elapsed":10841,"internal_node_id":"0.0-3.0-0.27","givenResp":"m","acc":1},{"rt":33,"stimulus":"<div id='stim_item' style='font-size:80px; onmousedown='return false' onselectstart='return false'>द्वार<br><br></div>","button_pressed":"1","type":"word","corrResp":"m","trial_type":"html-button-response","trial_index":31,"time_elapsed":10876,"internal_node_id":"0.0-3.0-0.28","givenResp":"m","acc":1},{"rt":39,"stimulus":"<div id='stim_item' style='font-size:80px; onmousedown='return false' onselectstart='return false'>फिहमना<br><br></div>","button_pressed":"1","type":"nonword","corrResp":"z","trial_type":"html-button-response","trial_index":32,"time_elapsed":10918,"internal_node_id":"0.0-3.0-0.29","givenResp":"m","acc":0},{"rt":33,"stimulus":"<div id='stim_item' style='font-size:80px; onmousedown='return false' onselectstart='return false'>शोषित<br><br></div>","button_pressed":"1","type":"word","corrResp":"m","trial_type":"html-button-response","trial_index":33,"time_elapsed":10953,"internal_node_id":"0.0-3.0-0.30","givenResp":"m","acc":1},{"rt":33,"stimulus":"<div id='stim_item' style='font-size:80px; onmousedown='return false' onselectstart='return false'>सोम<br><br></div>","button_pressed":"1","type":"word","corrResp":"m","trial_type":"html-button-response","trial_index":34,"time_elapsed":10989,"internal_node_id":"0.0-3.0-0.31","givenResp":"m","acc":1},{"rt":37,"stimulus":"<div id='stim_item' style='font-size:80px; onmousedown='return false' onselectstart='return false'>संदूषण<br><br></div>","button_pressed":"1","type":"word","corrResp":"m","trial_type":"html-button-response","trial_index":35,"time_elapsed":11027,"internal_node_id":"0.0-3.0-0.32","givenResp":"m","acc":1},{"rt":36,"stimulus":"<div id='stim_item' style='font-size:80px; onmousedown='return false' onselectstart='return false'>दशक<br><br></div>","button_pressed":"1","type":"word","corrResp":"m","trial_type":"html-button-response","trial_index":36,"time_elapsed":11066,"internal_node_id":"0.0-3.0-0.33","givenResp":"m","acc":1},{"rt":35,"stimulus":"<div id='stim_item' style='font-size:80px; onmousedown='return false' onselectstart='return false'>समायावसार<br><br></div>","button_pressed":"1","type":"nonword","corrResp":"z","trial_type":"html-button-response","trial_index":37,"time_elapsed":11104,"internal_node_id":"0.0-3.0-0.34","givenResp":"m","acc":0},{"rt":33,"stimulus":"<div id='stim_item' style='font-size:80px; onmousedown='return false' onselectstart='return false'>निरायना<br><br></div>","button_pressed":"1","type":"nonword","corrResp":"z","trial_type":"html-button-response","trial_index":38,"time_elapsed":11139,"internal_node_id":"0.0-3.0-0.35","givenResp":"m","acc":0},{"rt":35,"stimulus":"<div id='stim_item' style='font-size:80px; onmousedown='return false' onselectstart='return false'>उधति<br><br></div>","button_pressed":"1","type":"nonword","corrResp":"z","trial_type":"html-button-response","trial_index":39,"time_elapsed":11175,"internal_node_id":"0.0-3.0-0.36","givenResp":"m","acc":0},{"rt":36,"stimulus":"<div id='stim_item' style='font-size:80px; onmousedown='return false' onselectstart='return false'>संदिष्का<br><br></div>","button_pressed":"1","type":"nonword","corrResp":"z","trial_type":"html-button-response","trial_index":40,"time_elapsed":11213,"internal_node_id":"0.0-3.0-0.37","givenResp":"m","acc":0},{"rt":36,"stimulus":"<div id='stim_item' style='font-size:80px; onmousedown='return false' onselectstart='return false'>उपभोग<br><br></div>","button_pressed":"1","type":"word","corrResp":"m","trial_type":"html-button-response","trial_index":41,"time_elapsed":11250,"internal_node_id":"0.0-3.0-0.38","givenResp":"m","acc":1},{"rt":35,"stimulus":"<div id='stim_item' style='font-size:80px; onmousedown='return false' onselectstart='return false'>निष्ठुर<br><br></div>","button_pressed":"1","type":"word","corrResp":"m","trial_type":"html-button-response","trial_index":42,"time_elapsed":11287,"internal_node_id":"0.0-3.0-0.39","givenResp":"m","acc":1},{"rt":38,"stimulus":"<div id='stim_item' style='font-size:80px; onmousedown='return false' onselectstart='return false'>धांडेर<br><br></div>","button_pressed":"1","type":"nonword","corrResp":"z","trial_type":"html-button-response","trial_index":43,"time_elapsed":11325,"internal_node_id":"0.0-3.0-0.40","givenResp":"m","acc":0},{"rt":36,"stimulus":"<div id='stim_item' style='font-size:80px; onmousedown='return false' onselectstart='return false'>पर्ण<br><br></div>","button_pressed":"1","type":"word","corrResp":"m","trial_type":"html-button-response","trial_index":44,"time_elapsed":11362,"internal_node_id":"0.0-3.0-0.41","givenResp":"m","acc":1},{"rt":38,"stimulus":"<div id='stim_item' style='font-size:80px; onmousedown='return false' onselectstart='return false'>अमुक<br><br></div>","button_pressed":"1","type":"word","corrResp":"m","trial_type":"html-button-response","trial_index":45,"time_elapsed":11402,"internal_node_id":"0.0-3.0-0.42","givenResp":"m","acc":1},{"rt":36,"stimulus":"<div id='stim_item' style='font-size:80px; onmousedown='return false' onselectstart='return false'>फांथक<br><br></div>","button_pressed":"1","type":"nonword","corrResp":"z","trial_type":"html-button-response","trial_index":46,"time_elapsed":11439,"internal_node_id":"0.0-3.0-0.43","givenResp":"m","acc":0},{"rt":34,"stimulus":"<div id='stim_item' style='font-size:80px; onmousedown='return false' onselectstart='return false'>मूर्छित<br><br></div>","button_pressed":"1","type":"word","corrResp":"m","trial_type":"html-button-response","trial_index":47,"time_elapsed":11475,"internal_node_id":"0.0-3.0-0.44","givenResp":"m","acc":1},{"rt":34,"stimulus":"<div id='stim_item' style='font-size:80px; onmousedown='return false' onselectstart='return false'>भूमिति<br><br></div>","button_pressed":"1","type":"word","corrResp":"m","trial_type":"html-button-response","trial_index":48,"time_elapsed":11511,"internal_node_id":"0.0-3.0-0.45","givenResp":"m","acc":1},{"rt":35,"stimulus":"<div id='stim_item' style='font-size:80px; onmousedown='return false' onselectstart='return false'>अभ्यागत<br><br></div>","button_pressed":"1","type":"word","corrResp":"m","trial_type":"html-button-response","trial_index":49,"time_elapsed":11548,"internal_node_id":"0.0-3.0-0.46","givenResp":"m","acc":1},{"rt":36,"stimulus":"<div id='stim_item' style='font-size:80px; onmousedown='return false' onselectstart='return false'>ऋतु<br><br></div>","button_pressed":"1","type":"word","corrResp":"m","trial_type":"html-button-response","trial_index":50,"time_elapsed":11586,"internal_node_id":"0.0-3.0-0.47","givenResp":"m","acc":1},{"rt":40,"stimulus":"<div id='stim_item' style='font-size:80px; onmousedown='return false' onselectstart='return false'>त्वचा<br><br></div>","button_pressed":"1","type":"word","corrResp":"m","trial_type":"html-button-response","trial_index":51,"time_elapsed":11626,"internal_node_id":"0.0-3.0-0.48","givenResp":"m","acc":1},{"rt":33,"stimulus":"<div id='stim_item' style='font-size:80px; onmousedown='return false' onselectstart='return false'>दंश<br><br></div>","button_pressed":"1","type":"word","corrResp":"m","trial_type":"html-button-response","trial_index":52,"time_elapsed":11663,"internal_node_id":"0.0-3.0-0.49","givenResp":"m","acc":1},{"rt":33,"stimulus":"<div id='stim_item' style='font-size:80px; onmousedown='return false' onselectstart='return false'>औत्सुक्य<br><br></div>","button_pressed":"1","type":"word","corrResp":"m","trial_type":"html-button-response","trial_index":53,"time_elapsed":11697,"internal_node_id":"0.0-3.0-0.50","givenResp":"m","acc":1},{"rt":37,"stimulus":"<div id='stim_item' style='font-size:80px; onmousedown='return false' onselectstart='return false'>आश्चर्य<br><br></div>","button_pressed":"1","type":"word","corrResp":"m","trial_type":"html-button-response","trial_index":54,"time_elapsed":11735,"internal_node_id":"0.0-3.0-0.51","givenResp":"m","acc":1},{"rt":37,"stimulus":"<div id='stim_item' style='font-size:80px; onmousedown='return false' onselectstart='return false'>मनुष्य<br><br></div>","button_pressed":"1","type":"word","corrResp":"m","trial_type":"html-button-response","trial_index":55,"time_elapsed":11773,"internal_node_id":"0.0-3.0-0.52","givenResp":"m","acc":1},{"rt":37,"stimulus":"<div id='stim_item' style='font-size:80px; onmousedown='return false' onselectstart='return false'>परिपान<br><br></div>","button_pressed":"1","type":"nonword","corrResp":"z","trial_type":"html-button-response","trial_index":56,"time_elapsed":11811,"internal_node_id":"0.0-3.0-0.53","givenResp":"m","acc":0},{"rt":34,"stimulus":"<div id='stim_item' style='font-size:80px; onmousedown='return false' onselectstart='return false'>प्रंकन<br><br></div>","button_pressed":"1","type":"nonword","corrResp":"z","trial_type":"html-button-response","trial_index":57,"time_elapsed":11847,"internal_node_id":"0.0-3.0-0.54","givenResp":"m","acc":0},{"rt":36,"stimulus":"<div id='stim_item' style='font-size:80px; onmousedown='return false' onselectstart='return false'>काष्ट्रमषा<br><br></div>","button_pressed":"1","type":"nonword","corrResp":"z","trial_type":"html-button-response","trial_index":58,"time_elapsed":11885,"internal_node_id":"0.0-3.0-0.55","givenResp":"m","acc":0},{"rt":36,"stimulus":"<div id='stim_item' style='font-size:80px; onmousedown='return false' onselectstart='return false'>प्रतिधाका<br><br></div>","button_pressed":"1","type":"nonword","corrResp":"z","trial_type":"html-button-response","trial_index":59,"time_elapsed":11922,"internal_node_id":"0.0-3.0-0.56","givenResp":"m","acc":0},{"rt":35,"stimulus":"<div id='stim_item' style='font-size:80px; onmousedown='return false' onselectstart='return false'>धुंध<br><br></div>","button_pressed":"1","type":"word","corrResp":"m","trial_type":"html-button-response","trial_index":60,"time_elapsed":11959,"internal_node_id":"0.0-3.0-0.57","givenResp":"m","acc":1},{"rt":37,"stimulus":"<div id='stim_item' style='font-size:80px; onmousedown='return false' onselectstart='return false'>टगुधुंध<br><br></div>","button_pressed":"1","type":"nonword","corrResp":"z","trial_type":"html-button-response","trial_index":61,"time_elapsed":11997,"internal_node_id":"0.0-3.0-0.58","givenResp":"m","acc":0},{"rt":37,"stimulus":"<div id='stim_item' style='font-size:80px; onmousedown='return false' onselectstart='return false'>भिश्ती<br><br></div>","button_pressed":"1","type":"word","corrResp":"m","trial_type":"html-button-response","trial_index":62,"time_elapsed":12035,"internal_node_id":"0.0-3.0-0.59","givenResp":"m","acc":1},{"rt":35,"stimulus":"<div id='stim_item' style='font-size:80px; onmousedown='return false' onselectstart='return false'>रोकड़िया<br><br></div>","button_pressed":"1","type":"word","corrResp":"m","trial_type":"html-button-response","trial_index":63,"time_elapsed":12071,"internal_node_id":"0.0-3.0-0.60","givenResp":"m","acc":1},{"rt":36,"stimulus":"<div id='stim_item' style='font-size:80px; onmousedown='return false' onselectstart='return false'>भूतल<br><br></div>","button_pressed":"1","type":"word","corrResp":"m","trial_type":"html-button-response","trial_index":64,"time_elapsed":12108,"internal_node_id":"0.0-3.0-0.61","givenResp":"m","acc":1},{"rt":37,"stimulus":"<div id='stim_item' style='font-size:80px; onmousedown='return false' onselectstart='return false'>उद्यम<br><br></div>","button_pressed":"1","type":"word","corrResp":"m","trial_type":"html-button-response","trial_index":65,"time_elapsed":12146,"internal_node_id":"0.0-3.0-0.62","givenResp":"m","acc":1},{"rt":37,"stimulus":"<div id='stim_item' style='font-size:80px; onmousedown='return false' onselectstart='return false'>स्वायत्तता<br><br></div>","button_pressed":"1","type":"word","corrResp":"m","trial_type":"html-button-response","trial_index":66,"time_elapsed":12184,"internal_node_id":"0.0-3.0-0.63","givenResp":"m","acc":1},{"rt":35,"stimulus":"<div id='stim_item' style='font-size:80px; onmousedown='return false' onselectstart='return false'>शत्फ<br><br></div>","button_pressed":"1","type":"nonword","corrResp":"z","trial_type":"html-button-response","trial_index":67,"time_elapsed":12220,"internal_node_id":"0.0-3.0-0.64","givenResp":"m","acc":0},{"rt":37,"stimulus":"<div id='stim_item' style='font-size:80px; onmousedown='return false' onselectstart='return false'>विरोश<br><br></div>","button_pressed":"1","type":"nonword","corrResp":"z","trial_type":"html-button-response","trial_index":68,"time_elapsed":12259,"internal_node_id":"0.0-3.0-0.65","givenResp":"m","acc":0},{"rt":36,"stimulus":"<div id='stim_item' style='font-size:80px; onmousedown='return false' onselectstart='return false'>विस्मय<br><br></div>","button_pressed":"1","type":"word","corrResp":"m","trial_type":"html-button-response","trial_index":69,"time_elapsed":12296,"internal_node_id":"0.0-3.0-0.66","givenResp":"m","acc":1},{"rt":37,"stimulus":"<div id='stim_item' style='font-size:80px; onmousedown='return false' onselectstart='return false'>सुबकना<br><br></div>","button_pressed":"1","type":"word","corrResp":"m","trial_type":"html-button-response","trial_index":70,"time_elapsed":12335,"internal_node_id":"0.0-3.0-0.67","givenResp":"m","acc":1},{"rt":34,"stimulus":"<div id='stim_item' style='font-size:80px; onmousedown='return false' onselectstart='return false'>अल्प<br><br></div>","button_pressed":"1","type":"word","corrResp":"m","trial_type":"html-button-response","trial_index":71,"time_elapsed":12371,"internal_node_id":"0.0-3.0-0.68","givenResp":"m","acc":1},{"rt":36,"stimulus":"<div id='stim_item' style='font-size:80px; onmousedown='return false' onselectstart='return false'>बंगाम<br><br></div>","button_pressed":"1","type":"nonword","corrResp":"z","trial_type":"html-button-response","trial_index":72,"time_elapsed":12408,"internal_node_id":"0.0-3.0-0.69","givenResp":"m","acc":0},{"rt":37,"stimulus":"<div id='stim_item' style='font-size:80px; onmousedown='return false' onselectstart='return false'>स्यंदन<br><br></div>","button_pressed":"1","type":"word","corrResp":"m","trial_type":"html-button-response","trial_index":73,"time_elapsed":12447,"internal_node_id":"0.0-3.0-0.70","givenResp":"m","acc":1},{"rt":32,"stimulus":"<div id='stim_item' style='font-size:80px; onmousedown='return false' onselectstart='return false'>अभ्रक<br><br></div>","button_pressed":"1","type":"word","corrResp":"m","trial_type":"html-button-response","trial_index":74,"time_elapsed":12482,"internal_node_id":"0.0-3.0-0.71","givenResp":"m","acc":1},{"rt":36,"stimulus":"<div id='stim_item' style='font-size:80px; onmousedown='return false' onselectstart='return false'>कपोल<br><br></div>","button_pressed":"1","type":"word","corrResp":"m","trial_type":"html-button-response","trial_index":75,"time_elapsed":12519,"internal_node_id":"0.0-3.0-0.72","givenResp":"m","acc":1},{"rt":38,"stimulus":"<div id='stim_item' style='font-size:80px; onmousedown='return false' onselectstart='return false'>समर्पण<br><br></div>","button_pressed":"1","type":"word","corrResp":"m","trial_type":"html-button-response","trial_index":76,"time_elapsed":12558,"internal_node_id":"0.0-3.0-0.73","givenResp":"m","acc":1},{"rt":35,"stimulus":"<div id='stim_item' style='font-size:80px; onmousedown='return false' onselectstart='return false'>पिपासा<br><br></div>","button_pressed":"1","type":"word","corrResp":"m","trial_type":"html-button-response","trial_index":77,"time_elapsed":12595,"internal_node_id":"0.0-3.0-0.74","givenResp":"m","acc":1},{"rt":35,"stimulus":"<div id='stim_item' style='font-size:80px; onmousedown='return false' onselectstart='return false'>बिरौना<br><br></div>","button_pressed":"1","type":"nonword","corrResp":"z","trial_type":"html-button-response","trial_index":78,"time_elapsed":12631,"internal_node_id":"0.0-3.0-0.75","givenResp":"m","acc":0},{"rt":37,"stimulus":"<div id='stim_item' style='font-size:80px; onmousedown='return false' onselectstart='return false'>रौवधात<br><br></div>","button_pressed":"1","type":"nonword","corrResp":"z","trial_type":"html-button-response","trial_index":79,"time_elapsed":12669,"internal_node_id":"0.0-3.0-0.76","givenResp":"m","acc":0},{"rt":37,"stimulus":"<div id='stim_item' style='font-size:80px; onmousedown='return false' onselectstart='return false'>तजुकिना<br><br></div>","button_pressed":"1","type":"nonword","corrResp":"z","trial_type":"html-button-response","trial_index":80,"time_elapsed":12706,"internal_node_id":"0.0-3.0-0.77","givenResp":"m","acc":0},{"rt":38,"stimulus":"<div id='stim_item' style='font-size:80px; onmousedown='return false' onselectstart='return false'>निष्कासित<br><br></div>","button_pressed":"1","type":"word","corrResp":"m","trial_type":"html-button-response","trial_index":81,"time_elapsed":12744,"internal_node_id":"0.0-3.0-0.78","givenResp":"m","acc":1},{"rt":37,"stimulus":"<div id='stim_item' style='font-size:80px; onmousedown='return false' onselectstart='return false'>कंदरा<br><br></div>","button_pressed":"1","type":"word","corrResp":"m","trial_type":"html-button-response","trial_index":82,"time_elapsed":12782,"internal_node_id":"0.0-3.0-0.79","givenResp":"m","acc":1},{"rt":37,"stimulus":"<div id='stim_item' style='font-size:80px; onmousedown='return false' onselectstart='return false'>कुमुलिड़ी<br><br></div>","button_pressed":"1","type":"nonword","corrResp":"z","trial_type":"html-button-response","trial_index":83,"time_elapsed":12820,"internal_node_id":"0.0-3.0-0.80","givenResp":"m","acc":0},{"rt":35,"stimulus":"<div id='stim_item' style='font-size:80px; onmousedown='return false' onselectstart='return false'>सदैव<br><br></div>","button_pressed":"1","type":"word","corrResp":"m","trial_type":"html-button-response","trial_index":84,"time_elapsed":12856,"internal_node_id":"0.0-3.0-0.81","givenResp":"m","acc":1},{"rt":36,"stimulus":"<div id='stim_item' style='font-size:80px; onmousedown='return false' onselectstart='return false'>युगल<br><br></div>","button_pressed":"1","type":"word","corrResp":"m","trial_type":"html-button-response","trial_index":85,"time_elapsed":12894,"internal_node_id":"0.0-3.0-0.82","givenResp":"m","acc":1},{"rt":37,"stimulus":"<div id='stim_item' style='font-size:80px; onmousedown='return false' onselectstart='return false'>बधिर<br><br></div>","button_pressed":"1","type":"word","corrResp":"m","trial_type":"html-button-response","trial_index":86,"time_elapsed":12932,"internal_node_id":"0.0-3.0-0.83","givenResp":"m","acc":1},{"rt":35,"stimulus":"<div id='stim_item' style='font-size:80px; onmousedown='return false' onselectstart='return false'>पोखर<br><br></div>","button_pressed":"1","type":"word","corrResp":"m","trial_type":"html-button-response","trial_index":87,"time_elapsed":12969,"internal_node_id":"0.0-3.0-0.84","givenResp":"m","acc":1},{"rt":36,"stimulus":"<div id='stim_item' style='font-size:80px; onmousedown='return false' onselectstart='return false'>शुश्रूषा<br><br></div>","button_pressed":"1","type":"word","corrResp":"m","trial_type":"html-button-response","trial_index":88,"time_elapsed":13006,"internal_node_id":"0.0-3.0-0.85","givenResp":"m","acc":1},{"rt":35,"stimulus":"<div id='stim_item' style='font-size:80px; onmousedown='return false' onselectstart='return false'>प्रयोजन<br><br></div>","button_pressed":"1","type":"word","corrResp":"m","trial_type":"html-button-response","trial_index":89,"time_elapsed":13043,"internal_node_id":"0.0-3.0-0.86","givenResp":"m","acc":1},{"rt":36,"stimulus":"<div id='stim_item' style='font-size:80px; onmousedown='return false' onselectstart='return false'>अनिऊंर<br><br></div>","button_pressed":"1","type":"nonword","corrResp":"z","trial_type":"html-button-response","trial_index":90,"time_elapsed":13080,"internal_node_id":"0.0-3.0-0.87","givenResp":"m","acc":0},{"rt":38,"stimulus":"<div id='stim_item' style='font-size:80px; onmousedown='return false' onselectstart='return false'>अनाकष्ट<br><br></div>","button_pressed":"1","type":"nonword","corrResp":"z","trial_type":"html-button-response","trial_index":91,"time_elapsed":13119,"internal_node_id":"0.0-3.0-0.88","givenResp":"m","acc":0},{"rt":36,"stimulus":"<div id='stim_item' style='font-size:80px; onmousedown='return false' onselectstart='return false'>समय<br><br></div>","button_pressed":"1","type":"word","corrResp":"m","trial_type":"html-button-response","trial_index":92,"time_elapsed":13156,"internal_node_id":"0.0-3.0-0.89","givenResp":"m","acc":1},{"rt":33,"stimulus":"<div id='stim_item' style='font-size:80px; onmousedown='return false' onselectstart='return false'>मुखाग्नि<br><br></div>","button_pressed":"1","type":"word","corrResp":"m","trial_type":"html-button-response","trial_index":93,"time_elapsed":13191,"internal_node_id":"0.0-3.0-0.90","givenResp":"m","acc":1},{"rt":36,"stimulus":"<div id='stim_item' style='font-size:80px; onmousedown='return false' onselectstart='return false'>अखिश<br><br></div>","button_pressed":"1","type":"nonword","corrResp":"z","trial_type":"html-button-response","trial_index":94,"time_elapsed":13229,"internal_node_id":"0.0-3.0-0.91","givenResp":"m","acc":0},{"rt":36,"stimulus":"<div id='stim_item' style='font-size:80px; onmousedown='return false' onselectstart='return false'>लालायित<br><br></div>","button_pressed":"1","type":"word","corrResp":"m","trial_type":"html-button-response","trial_index":95,"time_elapsed":13265,"internal_node_id":"0.0-3.0-0.92","givenResp":"m","acc":1},{"rt":36,"stimulus":"<div id='stim_item' style='font-size:80px; onmousedown='return false' onselectstart='return false'>अपजत<br><br></div>","button_pressed":"1","type":"nonword","corrResp":"z","trial_type":"html-button-response","trial_index":96,"time_elapsed":13303,"internal_node_id":"0.0-3.0-0.93","givenResp":"m","acc":0},{"rt":37,"stimulus":"<div id='stim_item' style='font-size:80px; onmousedown='return false' onselectstart='return false'>अतीत<br><br></div>","button_pressed":"1","type":"word","corrResp":"m","trial_type":"html-button-response","trial_index":97,"time_elapsed":13341,"internal_node_id":"0.0-3.0-0.94","givenResp":"m","acc":1},{"rt":35,"stimulus":"<div id='stim_item' style='font-size:80px; onmousedown='return false' onselectstart='return false'>जटिदी<br><br></div>","button_pressed":"1","type":"nonword","corrResp":"z","trial_type":"html-button-response","trial_index":98,"time_elapsed":13379,"internal_node_id":"0.0-3.0-0.95","givenResp":"m","acc":0},{"rt":36,"stimulus":"<div id='stim_item' style='font-size:80px; onmousedown='return false' onselectstart='return false'>क्रंदन<br><br></div>","button_pressed":"1","type":"word","corrResp":"m","trial_type":"html-button-response","trial_index":99,"time_elapsed":13416,"internal_node_id":"0.0-3.0-0.96","givenResp":"m","acc":1},{"rt":37,"stimulus":"<div id='stim_item' style='font-size:80px; onmousedown='return false' onselectstart='return false'>उतयंक<br><br></div>","button_pressed":"1","type":"nonword","corrResp":"z","trial_type":"html-button-response","trial_index":100,"time_elapsed":13455,"internal_node_id":"0.0-3.0-0.97","givenResp":"m","acc":0},{"rt":34,"stimulus":"<div id='stim_item' style='font-size:80px; onmousedown='return false' onselectstart='return false'>प्रकोप<br><br></div>","button_pressed":"1","type":"word","corrResp":"m","trial_type":"html-button-response","trial_index":101,"time_elapsed":13490,"internal_node_id":"0.0-3.0-0.98","givenResp":"m","acc":1},{"rt":36,"stimulus":"<div id='stim_item' style='font-size:80px; onmousedown='return false' onselectstart='return false'>समृद्ध<br><br></div>","button_pressed":"1","type":"word","corrResp":"m","trial_type":"html-button-response","trial_index":102,"time_elapsed":13527,"internal_node_id":"0.0-3.0-0.99","givenResp":"m","acc":1},{"rt":36,"stimulus":"<div id='stim_item' style='font-size:80px; onmousedown='return false' onselectstart='return false'>निहित<br><br></div>","button_pressed":"1","type":"word","corrResp":"m","trial_type":"html-button-response","trial_index":103,"time_elapsed":13565,"internal_node_id":"0.0-3.0-0.100","givenResp":"m","acc":1},{"rt":37,"stimulus":"<div id='stim_item' style='font-size:80px; onmousedown='return false' onselectstart='return false'>प्रथा<br><br></div>","button_pressed":"1","type":"word","corrResp":"m","trial_type":"html-button-response","trial_index":104,"time_elapsed":13603,"internal_node_id":"0.0-3.0-0.101","givenResp":"m","acc":1},{"rt":37,"stimulus":"<div id='stim_item' style='font-size:80px; onmousedown='return false' onselectstart='return false'>साही<br><br></div>","button_pressed":"1","type":"word","corrResp":"m","trial_type":"html-button-response","trial_index":105,"time_elapsed":13640,"internal_node_id":"0.0-3.0-0.102","givenResp":"m","acc":1},{"rt":35,"stimulus":"<div id='stim_item' style='font-size:80px; onmousedown='return false' onselectstart='return false'>सलहज<br><br></div>","button_pressed":"1","type":"word","corrResp":"m","trial_type":"html-button-response","trial_index":106,"time_elapsed":13677,"internal_node_id":"0.0-3.0-0.103","givenResp":"m","acc":1},{"rt":null,"stimulus":"","key_press":null,"trial_type":"html-keyboard-response","trial_index":107,"time_elapsed":13678,"internal_node_id":"0.0-4.0"}]